Folder: eisfit/dat

Note: README.md
# EIS-fit
Hobby project which aims to fit circuit-equivalent models to electrochemical impedance spectroscopy data. In fact, that is a lie. The main aim is to practise Rust programming and this project seems like a fun one to start with.

More docs to come.

File: 20201202-KS-KS326-PEIS-10mV-1MHz-100mHz-20ptsprdec-charged_symmetric_inert_ref_LMO-VSP_C03.mpt
EC-Lab ASCII FILE
Nb header lines : 86

Potentio Electrochemical Impedance Spectroscopy

Run on channel : 3 (SN 30418)
User : KS
CE vs. WE compliance from -10 V to 10 V
Electrode connection : standard
Ewe ctrl range : min = -10,00 V, max = 10,00 V
Safety Limits :
	Do not start on E overload
Acquisition started on : 12/02/2020 13:58:29
Saved on :
	File : 20201202-KS-KS326-PEIS-10mV-1MHz-100mHz-20ptsprdec-charged_symmetric_inert_ref_LMO-VSP_C03.mpr
	Directory : C:\Users\reaktor\Documents\EC-Lab\Data\Katja\VSP\
	Host : 192.168.0.127
Device : VSP (SN 1273)
Address : 192.168.0.2
EC-Lab for windows v11.21 (software)
Internet server v11.20 (firmware)
Command interpretor v11.21 (firmware)
Electrode material :
Initial state :
Electrolyte :
Comments :
Current amplifier : Low Current
Electrode surface area : 0,001 cm²
Characteristic mass : 0,001 g
Equivalent Weight : 0,000 g/eq.
Density : 0,000 g/cm3
Cycle Definition : Charge/Discharge alternance
Mode                Single sine
E (V)               0,0000
vs.                 Eoc
tE (h:m:s)          0:00:0,0000
record              0
dI                  0,000
unit dI             mA
dt (s)              0,000
fi                  1,000
unit fi             MHz
ff                  20,000
unit ff             mHz
Nd                  10
Points              per decade
spacing             Logarithmic
Va (mV)             10,0
pw                  0,00
Na                  1
corr                0
lim_nb              0
limit_type1         Time
limit_comp1         >
limit_value1        0,000
limit_unit1         s
limit_type2         Time
limit_comp2         >
limit_value2        0,000
limit_unit2         s
limit_type3         Time
limit_comp3         >
limit_value3        0,000
limit_unit3         s
limit_type4         Time
limit_comp4         >
limit_value4        0,000
limit_unit4         s
limit_type5         Time
limit_comp5         >
limit_value5        0,000
limit_unit5         s
limit_type6         Time
limit_comp6         >
limit_value6        0,000
limit_unit6         s
E range min (V)     -10,000
E range max (V)     10,000
I Range             Auto
Bandwidth           4
nc cycles           0
goto Ns'            0
nr cycles           0
inc. cycle          1

freq/Hz	Re(Z)/Ohm	-Im(Z)/Ohm	|Z|/Ohm	Phase(Z)/deg	time/s	<Ewe>/V	<I>/mA	Cs/µF	Cp/µF	cycle number	I Range	|Ewe|/V	|I|/A	Re(Y)/Ohm-1	Im(Y)/Ohm-1	|Y|/Ohm-1	Phase(Y)/deg
1,0000186E+006	-4,8992124E+000	-6,8641634E+000	8,4332094E+000	1,2551688E+002	1,358600064559141E+000	5,1185307E-003	1,6772549E-001	-2,3185926E-002	-1,5360802E-002	1,000000000000000E+000	10	7,8507037E-006	9,3092711E-007	-6,8887509E-002	-9,6516557E-002	1,1857881E-001	-1,2551688E+002
4,9669684E+005	-3,1472942E-001	-5,0979650E-001	5,9912193E-001	1,2168964E+002	2,543600120843621E+000	9,9569210E-004	4,4461191E-002	-6,2853849E-001	-4,5508775E-001	1,000000000000000E+000	10	7,7386867E-005	1,2916714E-004	-8,7681293E-001	-1,4202553E+000	1,6691093E+000	-1,2168964E+002
2,4670613E+005	1,4947411E+000	-3,4978176E-003	1,4947451E+000	1,3407661E-001	3,574698676478874E+000	1,1299131E-004	1,7444178E-002	-1,8443489E+002	-1,0099574E-003	1,000000000000000E+000	10	1,1501327E-003	7,6945074E-004	6,6900855E-001	-1,5655353E-003	6,6901040E-001	-1,3407661E-001
1,2254120E+005	1,6544825E+000	9,7210783E-001	1,9189335E+000	-3,0436794E+001	4,366703194093134E+000	-5,9188260E-005	1,3858486E-002	1,3360527E+000	3,4287244E-001	1,000000000000000E+000	10	5,9537776E-003	3,1026492E-003	4,4930610E-001	2,6399434E-001	5,2112281E-001	3,0436794E+001
6,0866984E+004	2,0476265E+000	2,1735287E+000	2,9861348E+000	-4,6708427E+001	5,027702318824595E+000	-1,1499246E-005	1,6490545E-002	1,2030203E+000	6,3736016E-001	1,000000000000000E+000	10	1,0909493E-002	3,6533826E-003	2,2963174E-001	2,4375109E-001	3,3488107E-001	4,6708427E+001
3,0229361E+004	2,9298742E+000	3,9816132E+000	4,9434204E+000	-5,3652470E+001	5,819691823111498E+000	2,4698320E-006	1,6660003E-002	1,3223064E+000	8,5781801E-001	1,000000000000000E+000	10	1,0701803E-002	2,1648579E-003	1,1989301E-001	1,6293110E-001	2,0228909E-001	5,3652470E+001
1,5012617E+004	5,0349360E+000	6,5480680E+000	8,2600107E+000	-5,2442623E+001	6,611678447392478E+000	1,1533865E-005	1,7127521E-002	1,6190138E+000	1,0174562E+000	1,000000000000000E+000	10	1,0466034E-002	1,2670726E-003	7,3795982E-002	9,5973648E-002	1,2106522E-001	5,2442623E+001
7,4553955E+003	9,2377930E+000	9,0694628E+000	1,2945732E+001	-4,4473194E+001	7,172180233959807E+000	-1,8586374E-005	1,6184973E-002	2,3537908E+000	1,1552547E+000	1,000000000000000E+000	10	1,0887873E-002	8,4103958E-004	5,5120736E-002	5,4116327E-002	7,7245533E-002	4,4473194E+001
3,7061863E+003	1,5105376E+001	9,5838308E+000	1,7889164E+001	-3,2393692E+001	7,809068690898130E+000	-1,7859029E-005	1,9923463E-002	4,4807816E+000	1,2860326E+000	1,000000000000000E+000	10	1,0459645E-002	5,8469165E-004	4,7201026E-002	2,9947395E-002	5,5899762E-002	3,2393692E+001
1,8405891E+003	2,0048233E+001	7,7204285E+000	2,1483404E+001	-2,1061333E+001	8,469085842254572E+000	-1,5229351E-005	1,9796792E-002	1,1200099E+001	1,4464335E+000	1,000000000000000E+000	10	1,0258581E-002	4,7751187E-004	4,3438006E-002	1,6727662E-002	4,6547558E-002	2,1061333E+001
9,1412268E+002	2,2817318E+001	5,2695684E+000	2,3417906E+001	-1,3004233E+001	9,128348646889208E+000	-1,5154754E-005	2,0513942E-002	3,3040043E+001	1,6729949E+000	1,000000000000000E+000	10	1,0176544E-002	4,3456251E-004	4,1607197E-002	9,6090166E-003	4,2702366E-002	1,3004233E+001
4,5398309E+002	2,4306171E+001	3,5698781E+000	2,4566929E+001	-8,3553667E+000	9,789587371546077E+000	-1,8698316E-005	1,9834047E-002	9,8203514E+001	2,0736339E+000	1,000000000000000E+000	10	1,0159821E-002	4,1355682E-004	4,0273078E-002	5,9149577E-003	4,0705130E-002	8,3553667E+000
2,2536060E+002	2,5184706E+001	2,5230758E+000	2,5310774E+001	-5,7209663E+000	1,044980308301456E+001	-9,1493521E-006	2,0230807E-002	2,7990576E+002	2,7813880E+000	1,000000000000000E+000	10	1,0152916E-002	4,0113024E-004	3,9312080E-002	3,9383965E-003	3,9508868E-002	5,7209663E+000
1,1204369E+002	2,5928951E+001	2,0573184E+000	2,6010441E+001	-4,5365982E+000	1,135546477933531E+001	4,9502855E-006	1,1461680E-002	6,9044836E+002	4,3195529E+000	1,000000000000000E+000	11	1,0154398E-002	3,9039701E-004	3,8325649E-002	3,0409277E-003	3,8446099E-002	4,5365982E+000
5,5659000E+001	2,6562084E+001	1,9458853E+000	2,6633265E+001	-4,1898899E+000	1,201676857078564E+001	7,3531760E-007	1,1717164E-002	1,4694929E+003	7,8442812E+000	1,000000000000000E+000	11	1,0151847E-002	3,8117173E-004	3,7446681E-002	2,7432691E-003	3,7547030E-002	4,1898899E+000
2,7638565E+001	2,7211575E+001	2,1719787E+000	2,7298119E+001	-4,5635705E+000	1,269829814977129E+001	6,6381645E-006	1,1854237E-002	2,6512405E+003	1,6783974E+001	1,000000000000000E+000	11	1,0156507E-002	3,7205886E-004	3,6516424E-002	2,9146748E-003	3,6632560E-002	4,5635705E+000
1,3722188E+001	2,8128431E+001	2,8094332E+000	2,8268385E+001	-5,7037158E+000	1,333379514000262E+001	8,1115350E-006	1,1345508E-002	4,1283647E+003	4,0776833E+001	1,000000000000000E+000	11	1,0155787E-002	3,5926307E-004	3,5200071E-002	3,5157397E-003	3,5375208E-002	5,7037158E+000
6,8171906E+000	2,9802031E+001	3,4612451E+000	3,0002354E+001	-6,6247234E+000	1,395670668959792E+001	-9,4850584E-006	1,1792931E-002	6,7450059E+003	8,9771065E+001	1,000000000000000E+000	11	1,0155171E-002	3,3847915E-004	3,3108175E-002	3,8452246E-003	3,3330720E-002	6,6247234E+000
3,3849652E+000	3,1784565E+001	3,5471203E+000	3,1981880E+001	-6,3677940E+000	1,473382221983047E+001	6,3926791E-008	1,0504032E-002	1,3255313E+004	1,6305490E+002	1,000000000000000E+000	11	1,0153262E-002	3,1746921E-004	3,1074798E-002	3,4679112E-003	3,1267706E-002	6,3677940E+000
1,6801078E+000	3,3572243E+001	2,8975966E+000	3,3697056E+001	-4,9329333E+000	1,623142247760552E+001	1,0377814E-005	1,0835832E-002	3,2692270E+004	2,4173358E+002	1,000000000000000E+000	11	1,0151278E-002	3,0125119E-004	2,9566264E-002	2,5518434E-003	2,9676184E-002	4,9329333E+000
8,3556122E-001	3,4615063E+001	2,3236692E+000	3,4692966E+001	-3,8404379E+000	1,998362433586590E+001	8,9044515E-006	9,4873691E-003	8,1972383E+004	3,6773355E+002	1,000000000000000E+000	12	1,0154086E-002	2,9268430E-004	2,8759560E-002	1,9305962E-003	2,8824287E-002	3,8404379E+000
4,1485238E-001	3,5299500E+001	2,0918853E+000	3,5361427E+001	-3,3914416E+000	2,588241626930540E+001	1,3554334E-005	8,6601889E-003	1,8339550E+005	6,4180762E+002	1,000000000000000E+000	12	1,0155519E-002	2,8719197E-004	2,8229875E-002	1,6729319E-003	2,8279401E-002	3,3914416E+000
2,0618895E-001	3,5969288E+001	2,2221251E+000	3,6037861E+001	-3,5351489E+000	3,770383475084964E+001	1,5926104E-005	7,5545660E-003	3,4736516E+005	1,3207031E+003	1,000000000000000E+000	12	1,0151654E-002	2,8169414E-004	2,7695794E-002	1,7110019E-003	2,7748594E-002	3,5351489E+000
1,0236504E-001	3,6756359E+001	2,7038786E+000	3,6855675E+001	-4,2072258E+000	6,145613638564828E+001	1,5980188E-005	6,4119557E-003	5,7501781E+005	3,0949021E+003	1,000000000000000E+000	12	1,0150153E-002	2,7540274E-004	2,7059747E-002	1,9905746E-003	2,7132863E-002	4,2072258E+000
5,0859984E-002	3,7742332E+001	3,6050179E+000	3,7914112E+001	-5,4561429E+000	1,092513684691221E+002	1,9185611E-005	5,1416741E-003	8,6803344E+005	7,8478296E+003	1,000000000000000E+000	12	1,0156979E-002	2,6789441E-004	2,6255904E-002	2,5078736E-003	2,6375404E-002	5,4561429E+000
2,5282027E-002	3,9070126E+001	5,0626025E+000	3,9396759E+001	-7,3830962E+000	2,053290394326032E+002	1,2918988E-005	4,3412116E-003	1,2434674E+006	2,0533408E+004	1,000000000000000E+000	12	1,0155082E-002	2,5776439E-004	2,5172353E-002	3,2617662E-003	2,5382798E-002	7,3830962E+000
1,9992474E-002	3,9638184E+001	5,7124491E+000	4,0047691E+001	-8,2007074E+000	2,555215638432710E+002	1,2468980E-005	4,0334561E-003	1,3935779E+006	2,8354434E+004	1,000000000000000E+000	12	1,0154728E-002	2,5356587E-004	2,4714895E-002	3,5617822E-003	2,4970228E-002	8,2007074E+000